<?xml version="1.0" encoding="UTF-8"?>

<ODM xmlns="http://www.cdisc.org/ns/odm/v2.0" CreationDateTime="2009-09-07T18:19:28+01:00" Description="A simple trial to demonstrate the end-to-end application of the CDISC Standards from D.I.H extended by J.A." FileOID="CES_001" FileType="Transactional" Granularity="Metadata" ODMVersion="1.3.2" SourceSystem="XML4Pharma CDISC ODM Study Designer" SourceSystemVersion="2008R2">
	<Study OID="CES">
		<GlobalVariables>
			<StudyName>CDISC Example Study</StudyName>
			<StudyDescription>A simple trial to demonstrate the end-to-end application of the CDISC Standards</StudyDescription>
			<ProtocolName>CDISC Example Study</ProtocolName>
		</GlobalVariables>
		<BasicDefinitions>
			<MeasurementUnit Name="mm Hg" OID="MU_MMHG">
				<Symbol>
					<TranslatedText xml:lang="en">mm Hg</TranslatedText>
					<TranslatedText xml:lang="fr">mm Hg</TranslatedText>
					<TranslatedText xml:lang="de">mm Hg</TranslatedText>
					<TranslatedText xml:lang="ko">밀리미터 수은</TranslatedText>
				</Symbol>
			</MeasurementUnit>
			<MeasurementUnit Name="Pounds" OID="MU_POUNDS">
				<Symbol>
					<TranslatedText xml:lang="en">lbs</TranslatedText>
					<TranslatedText xml:lang="fr">livres</TranslatedText>
					<TranslatedText xml:lang="de">Pfund</TranslatedText>
					<TranslatedText xml:lang="ko">파운드</TranslatedText>
				</Symbol>
			</MeasurementUnit>
			<MeasurementUnit Name="Inches" OID="MU_INCHES">
				<Symbol>
					<TranslatedText xml:lang="en">in</TranslatedText>
					<TranslatedText xml:lang="fr">pouce</TranslatedText>
					<TranslatedText xml:lang="de">Zoll</TranslatedText>
					<TranslatedText xml:lang="ko">인치</TranslatedText>
				</Symbol>
			</MeasurementUnit>
			<MeasurementUnit Name="Centimeters" OID="MU_CM">
				<Symbol>
					<TranslatedText xml:lang="en">cm</TranslatedText>
					<TranslatedText xml:lang="fr">cm</TranslatedText>
					<TranslatedText xml:lang="de">cm</TranslatedText>
					<TranslatedText xml:lang="ko">센티미터</TranslatedText>
				</Symbol>
			</MeasurementUnit>
			<MeasurementUnit Name="Kilograms" OID="MU_KG">
				<Symbol>
					<TranslatedText xml:lang="en">kg</TranslatedText>
					<TranslatedText xml:lang="fr">Kilo</TranslatedText>
					<TranslatedText xml:lang="de">Kg</TranslatedText>
					<TranslatedText xml:lang="ko">킬로그램</TranslatedText>
				</Symbol>
			</MeasurementUnit>
			<MeasurementUnit Name="million/uL" OID="MU_RBC">
				<Symbol>
					<TranslatedText xml:lang="en">million/uL</TranslatedText>
					<TranslatedText xml:lang="fr">million/uL</TranslatedText>
					<TranslatedText xml:lang="de">Million/uL</TranslatedText>
				</Symbol>
			</MeasurementUnit>
			<MeasurementUnit Name="thousand/uL" OID="MU_WBC">
				<Symbol>
					<TranslatedText xml:lang="en">thousand/uL</TranslatedText>
					<TranslatedText xml:lang="de">Tausand/uL</TranslatedText>
					<TranslatedText xml:lang="fr">milliers/uL</TranslatedText>
				</Symbol>
			</MeasurementUnit>
		</BasicDefinitions>
		<MetaDataVersion Description="CDISC Example Study Metadata" Name="CDISC Example Study Metadata" OID="CES_MDV_V1">
			<WorkflowDef OID="WF.MAIN" Name="Protocol main workflow">
				<Description>
					<TranslatedText xml:lang="en">Linear workflow generated from ODM 1.3 'Protocol' element for 'Scheduled' StudyEvents</TranslatedText>
				</Description>
				<WorkflowStart StartOID="BASELINE"/>
				<Transition OID="TR.BASELINE.WEEK_1" Name="Transition between StudyEvent Baseline Visit and StudyEvent Week 1 Visit" SourceOID="BASELINE" TargetOID="WEEK_1"/>
				<Transition OID="TR.WEEK_1.WEEK_2" Name="Transition between StudyEvent Week 1 Visit and StudyEvent Week 2 Visit" SourceOID="WEEK_1" TargetOID="WEEK_2"/>
				<Transition OID="TR.WEEK_2.DIARY" Name="Transition between StudyEvent Week 2 Visit and StudyEvent Patient Diary Event" SourceOID="WEEK_2" TargetOID="DIARY"/>
				<WorkflowEnd EndOID="DIARY"/>
			</WorkflowDef>
			<StudyEventDef Name="Baseline Visit" OID="BASELINE" Repeating="No" Type="Scheduled">
				<Description>
					<TranslatedText xml:lang="en">Baseline</TranslatedText>
					<TranslatedText xml:lang="de">Basislinie</TranslatedText>
				</Description>
				<FormRef FormOID="F_BASELINE" Mandatory="Yes" OrderNumber="1"/>
				<FormRef FormOID="F_CM" Mandatory="Yes" OrderNumber="2"/>
				<FormRef FormOID="F_LAB" Mandatory="Yes" OrderNumber="3"/>
				<FormRef CollectionExceptionConditionOID="COND.FORMUSE.SMOKING_COMPLAINTS" FormOID="F_COMPLAINTS_REL_SMOKING" Mandatory="No" OrderNumber="4"/>
				<Alias Context="TEST" Name="Baseline Alias"/>
			</StudyEventDef>
			<StudyEventDef Name="Week 1 Visit" OID="WEEK_1" Repeating="No" Type="Scheduled">
				<Description>
					<TranslatedText xml:lang="en">Week 1 Visit</TranslatedText>
					<TranslatedText xml:lang="de">Woche 1 Visite</TranslatedText>
				</Description>
				<FormRef FormOID="F_WEEK_1_2" Mandatory="Yes" OrderNumber="1"/>
				<FormRef FormOID="F_LAB" Mandatory="Yes" OrderNumber="2"/>
			</StudyEventDef>
			<StudyEventDef Name="Week 2 Visit" OID="WEEK_2" Repeating="No" Type="Scheduled">
				<Description>
					<TranslatedText xml:lang="en">Week 2 Visit</TranslatedText>
					<TranslatedText xml:lang="de">Woche 2 Visite</TranslatedText>
				</Description>
				<FormRef FormOID="F_WEEK_1_2" Mandatory="Yes" OrderNumber="1"/>
				<FormRef FormOID="F_LAB" Mandatory="Yes" OrderNumber="2"/>
			</StudyEventDef>
			<StudyEventDef Name="Patient Diary Event" OID="DIARY" Repeating="Yes" Type="Scheduled">
				<Description>
					<TranslatedText xml:lang="en">Patient diary is returned</TranslatedText>
				</Description>
				<FormRef FormOID="F_DIARY" Mandatory="Yes" OrderNumber="1"/>
			</StudyEventDef>
			<StudyEventDef Name="Adverse Event" OID="AE" Repeating="No" Type="Common">
				<FormRef FormOID="F_AE" Mandatory="No" OrderNumber="1"/>
				<FormRef FormOID="F_CM" Mandatory="No" OrderNumber="2"/>
			</StudyEventDef>
			<FormDef Name="Baseline Visit Form" OID="F_BASELINE" Repeating="No">
				<Description>
					<TranslatedText xml:lang="en">Baseline</TranslatedText>
					<TranslatedText xml:lang="fr">Ligne de base</TranslatedText>
					<TranslatedText xml:lang="de">Basislinie</TranslatedText>
					<TranslatedText xml:lang="ko">기준선</TranslatedText>
				</Description>
				<ItemGroupRef ItemGroupOID="IG_COMMON" Mandatory="Yes" OrderNumber="1"/>
				<ItemGroupRef ItemGroupOID="IG_DM" Mandatory="Yes" OrderNumber="2"/>
				<ItemGroupRef ItemGroupOID="IG_SH" Mandatory="Yes" OrderNumber="3"/>
				<ItemGroupRef ItemGroupOID="IG_DH" Mandatory="Yes" OrderNumber="5"/>
				<ItemGroupRef ItemGroupOID="IG_PE_BASE" Mandatory="Yes" OrderNumber="6"/>
				<ItemGroupRef ItemGroupOID="IG_XRAY" Mandatory="Yes" OrderNumber="7"/>
				<ItemGroupRef CollectionExceptionConditionOID="COND.IGUSE.SMOKING_COMPLAINTS" ItemGroupOID="IG_SMOKING_COMPLAINTS" Mandatory="No" OrderNumber="4"/>
				<Alias Context="TEST" Name="Baseline Form Alias"/>
			</FormDef>
			<FormDef Name="Week 1 and 2 Form" OID="F_WEEK_1_2" Repeating="No">
				<Description>
					<TranslatedText xml:lang="en">Week 1 and 2</TranslatedText>
					<TranslatedText xml:lang="fr">Semaine 1 et 2</TranslatedText>
					<TranslatedText xml:lang="de">Woche 1 und 2</TranslatedText>
					<TranslatedText xml:lang="ko">주 1과 2</TranslatedText>
				</Description>
				<ItemGroupRef ItemGroupOID="IG_COMMON" Mandatory="Yes" OrderNumber="1"/>
				<ItemGroupRef ItemGroupOID="IG_PE_WEEK" Mandatory="Yes" OrderNumber="2"/>
			</FormDef>
			<FormDef Name="Diary Form" OID="F_DIARY" Repeating="No">
				<Description>
					<TranslatedText xml:lang="en">Diary</TranslatedText>
					<TranslatedText xml:lang="fr">Journal</TranslatedText>
					<TranslatedText xml:lang="de">Tagesbuch</TranslatedText>
					<TranslatedText xml:lang="ko">일기</TranslatedText>
				</Description>
				<ItemGroupRef ItemGroupOID="IG_COMMON" Mandatory="Yes" OrderNumber="1"/>
				<ItemGroupRef ItemGroupOID="IG_PD" Mandatory="Yes" OrderNumber="2"/>
			</FormDef>
			<FormDef Name="Adverse Event Form (ACRO)" OID="F_AE" Repeating="Yes">
				<Description>
					<TranslatedText xml:lang="en">Adverse Events</TranslatedText>
					<TranslatedText xml:lang="fr">Evénements défavorables</TranslatedText>
					<TranslatedText xml:lang="de">Unerwünschte Vorfälle</TranslatedText>
					<TranslatedText xml:lang="ko"/>
				</Description>
				<ItemGroupRef ItemGroupOID="IG_COMMON" Mandatory="Yes" OrderNumber="1"/>
				<ItemGroupRef ItemGroupOID="IG_AE_OCCURRED" Mandatory="Yes" OrderNumber="2"/>
				<ItemGroupRef CollectionExceptionConditionOID="COND.IGUSE.ADVERSE_EVENTS" ItemGroupOID="IG_AE" Mandatory="Yes" OrderNumber="3"/>
			</FormDef>
			<FormDef Name="Prior or Concomitant Medications (ACRO)" OID="F_CM" Repeating="Yes">
				<Description>
					<TranslatedText xml:lang="en">Prior or Concomitant Medications</TranslatedText>
					<TranslatedText xml:lang="fr">Médications précédentes</TranslatedText>
					<TranslatedText xml:lang="de">Vorherige Medikationen</TranslatedText>
					<TranslatedText xml:lang="ko"/>
				</Description>
				<ItemGroupRef ItemGroupOID="IG_COMMON" Mandatory="Yes" OrderNumber="1"/>
				<ItemGroupRef ItemGroupOID="IG_CM_TAKEN" Mandatory="Yes" OrderNumber="2"/>
				<ItemGroupRef CollectionExceptionConditionOID="COND.IGUSE.CM" ItemGroupOID="IG_CM" Mandatory="Yes" OrderNumber="3"/>
			</FormDef>
			<FormDef Name="Laboratory" OID="F_LAB" Repeating="No">
				<Description>
					<TranslatedText xml:lang="en">Laboratory</TranslatedText>
					<TranslatedText xml:lang="de">Laboratorium</TranslatedText>
					<TranslatedText xml:lang="fr">Laboratoire</TranslatedText>
					<TranslatedText xml:lang="ko"/>
				</Description>
				<ItemGroupRef ItemGroupOID="IG_COMMON" Mandatory="Yes" OrderNumber="1"/>
				<ItemGroupRef ItemGroupOID="IG_LB_HEMATOLOGY" Mandatory="Yes" OrderNumber="3"/>
			</FormDef>
			<FormDef Name="Complaints related to smoking" OID="F_COMPLAINTS_REL_SMOKING" Repeating="No">
				<Description>
					<TranslatedText xml:lang="en">Complaints related to smoking - Do NOT use this form when the subject is a non-smoker</TranslatedText>
					<TranslatedText xml:lang="fr">Plaintes en relation avec le fumage - N'utilisez pas ce formulaire quand le sujet est non-fumeur</TranslatedText>
					<TranslatedText xml:lang="de">Klagen in beziehung zum rauchen - Benützen sie diesen Formular nicht wenn der Patient nicht-raucher ist.</TranslatedText>
					<TranslatedText xml:lang="ko"/>
				</Description>
				<ItemGroupRef ItemGroupOID="IG_SMOKING_COMPLAINTS" Mandatory="Yes" OrderNumber="1"/>
			</FormDef>
			<ItemGroupDef Domain="all" Name="Common" OID="IG_COMMON" Repeating="No" SASDatasetName="COMMON">
				<Description>
					<TranslatedText xml:lang="en">Common</TranslatedText>
					<TranslatedText xml:lang="fr">General</TranslatedText>
					<TranslatedText xml:lang="de">Algemein</TranslatedText>
					<TranslatedText xml:lang="ko"/>
				</Description>
				<ItemRef ItemOID="I_SITE" Mandatory="Yes" OrderNumber="1"/>
				<ItemRef ItemOID="I_SUBJECTID" Mandatory="Yes" OrderNumber="2"/>
				<ItemRef ItemOID="I_VISIT" Mandatory="Yes" OrderNumber="3"/>
				<ItemRef ItemOID="I_VISITTIME" Mandatory="Yes" OrderNumber="4"/>
				<Alias Context="TEST" Name="Common ItemGroup Alias"/>
			</ItemGroupDef>
			<ItemGroupDef Domain="DM" Name="Demographics" OID="IG_DM" Repeating="No" SASDatasetName="DEMOG">
				<Description>
					<TranslatedText xml:lang="en">Demographics</TranslatedText>
					<TranslatedText xml:lang="fr">Demographie</TranslatedText>
					<TranslatedText xml:lang="de">Demografie</TranslatedText>
					<TranslatedText xml:lang="ko"/>
				</Description>
				<ItemRef ItemOID="I_BRTHDT" Mandatory="Yes" OrderNumber="1"/>
				<ItemRef ItemOID="I_SEX" Mandatory="Yes" OrderNumber="2"/>
				<ItemRef ItemOID="I_RACE" Mandatory="No" OrderNumber="3"/>
				<Alias Context="SDTM" Name="DM"/>
			</ItemGroupDef>
			<ItemGroupDef Domain="SU" Name="Smoking History" OID="IG_SH" Repeating="No" SASDatasetName="SMOKE">
				<Description>
					<TranslatedText xml:lang="en">Smoking History</TranslatedText>
					<TranslatedText xml:lang="fr">Histoire consommation du tabac</TranslatedText>
					<TranslatedText xml:lang="de">Vergangenheit i.B.a. Rauchen</TranslatedText>
					<TranslatedText xml:lang="ko"/>
				</Description>
				<ItemRef ItemOID="I_SMOKING" Mandatory="Yes" OrderNumber="1"/>
				<ItemRef CollectionExceptionConditionOID="COND.SMOKING" ItemOID="I_NR_CIGARETTES" Mandatory="No" OrderNumber="2"/>
			</ItemGroupDef>
			<ItemGroupDef Domain="SU" Name="Drinking History" OID="IG_DH" Repeating="No" SASDatasetName="DRINK">
				<Description>
					<TranslatedText xml:lang="en">Drinking history</TranslatedText>
					<TranslatedText xml:lang="fr">Histoire consommation de l'alcool</TranslatedText>
					<TranslatedText xml:lang="de">Vergangenheit i.B.a. Alkoholverbrauch</TranslatedText>
					<TranslatedText xml:lang="ko"/>
				</Description>
				<ItemRef ItemOID="I_DRINKING" Mandatory="Yes" OrderNumber="1"/>
			</ItemGroupDef>
			<ItemGroupDef Domain="VS" Name="Physical Exam" OID="IG_PE_BASE" Repeating="No" SASDatasetName="PHYEXBAS">
				<Description>
					<TranslatedText xml:lang="en">Physical examination: Base</TranslatedText>
					<TranslatedText xml:lang="fr">Examination du corps: Base</TranslatedText>
					<TranslatedText xml:lang="de">Körperuntersuchung: Basis</TranslatedText>
					<TranslatedText xml:lang="ko"/>
				</Description>
				<ItemRef ItemOID="I_HEIGHT" Mandatory="Yes" OrderNumber="1"/>
				<ItemRef ItemOID="I_WEIGHT" Mandatory="Yes" OrderNumber="2"/>
				<ItemRef ItemOID="I_SYSBP" Mandatory="No" OrderNumber="3"/>
				<ItemRef ItemOID="I_DIABP" Mandatory="Yes" MethodOID="METH.001" OrderNumber="4"/>
				<ItemRef CollectionExceptionConditionOID="COND.DBP.DIZZY" ItemOID="I_DIZZY" Mandatory="Yes" OrderNumber="5"/>
			</ItemGroupDef>
			<ItemGroupDef Name="XRay" OID="IG_XRAY" Repeating="No">
				<Description>
					<TranslatedText xml:lang="en">X-Ray</TranslatedText>
					<TranslatedText xml:lang="fr">Rayons X</TranslatedText>
					<TranslatedText xml:lang="de">Röntgenbild</TranslatedText>
					<TranslatedText xml:lang="ko"/>
				</Description>
				<ItemRef ItemOID="I_XRAY" Mandatory="Yes" OrderNumber="1"/>
			</ItemGroupDef>
			<ItemGroupDef Domain="VS" Name="Physical Exam" OID="IG_PE_WEEK" Repeating="No" SASDatasetName="PHYEX">
				<Description>
					<TranslatedText xml:lang="en">Physical Examination: Week</TranslatedText>
					<TranslatedText xml:lang="fr">Examination du corps: Semaine</TranslatedText>
					<TranslatedText>Körperuntersuchung: Woche</TranslatedText>
					<TranslatedText xml:lang="ko"/>
				</Description>
				<ItemRef ItemOID="I_WEIGHT" Mandatory="Yes" OrderNumber="1"/>
				<ItemRef ItemOID="I_SYSBP" Mandatory="Yes" OrderNumber="2"/>
				<ItemRef ItemOID="I_DIABP" Mandatory="Yes" OrderNumber="3"/>
			</ItemGroupDef>
			<ItemGroupDef Domain="QS" Name="Patient Diary" OID="IG_PD" Repeating="Yes" SASDatasetName="DIARY">
				<Description>
					<TranslatedText xml:lang="en">Patient diary</TranslatedText>
					<TranslatedText xml:lang="fr">Journal du patient</TranslatedText>
					<TranslatedText xml:lang="de">Patient Tagesbuch</TranslatedText>
					<TranslatedText xml:lang="ko"/>
				</Description>
				<ItemRef ItemOID="I_DAY" Mandatory="Yes" OrderNumber="1"/>
				<ItemRef ItemOID="I_DATE" Mandatory="Yes" OrderNumber="2"/>
				<ItemRef ItemOID="I_DIARY" Mandatory="Yes" OrderNumber="3"/>
			</ItemGroupDef>
			<ItemGroupDef Domain="AE" Name="Adverse Events Occurred" OID="IG_AE_OCCURRED" Repeating="No" SASDatasetName="AEOCCUR">
				<Description>
					<TranslatedText xml:lang="en">Adverse events</TranslatedText>
					<TranslatedText xml:lang="fr">Evénements défavorables</TranslatedText>
					<TranslatedText xml:lang="de">Unerwünschte Vorfälle</TranslatedText>
					<TranslatedText xml:lang="ko"/>
				</Description>
				<ItemRef ItemOID="I_AE_OCCURRED" Mandatory="Yes" OrderNumber="1"/>
			</ItemGroupDef>
			<ItemGroupDef Domain="AE" Name="Adverse Event" OID="IG_AE" Repeating="Yes" SASDatasetName="AEEVENT">
				<Description>
					<TranslatedText xml:lang="en">Adverse events</TranslatedText>
					<TranslatedText xml:lang="de">Unerwünschte Vorfälle</TranslatedText>
					<TranslatedText xml:lang="fr">Evénement défavorables</TranslatedText>
					<TranslatedText xml:lang="ko"/>
				</Description>
				<ItemRef ItemOID="I_AE_EVENT" Mandatory="Yes" OrderNumber="1"/>
				<ItemRef ItemOID="I_AE_TERM" Mandatory="Yes" OrderNumber="2"/>
				<ItemRef ItemOID="I_AE_START" Mandatory="Yes" OrderNumber="3"/>
				<ItemRef ItemOID="I_AE_CONTINUES" Mandatory="No" OrderNumber="4"/>
				<ItemRef CollectionExceptionConditionOID="COND.AESTOP.STOPPED" ItemOID="I_AE_STOP" Mandatory="No" OrderNumber="5"/>
				<ItemRef CollectionExceptionConditionOID="COND.AESTOP.STOPPED" ItemOID="I_AE_DURATION" Mandatory="No" OrderNumber="6"/>
				<ItemRef ItemOID="I_AE_SERIOUS" Mandatory="Yes" OrderNumber="7"/>
				<ItemRef CollectionExceptionConditionOID="COND.AE_SEVERITY.AE_SERIOUS" ItemOID="I_AE_SEVERITY" Mandatory="Yes" OrderNumber="8"/>
				<ItemRef ItemOID="I_AE_RELATED" Mandatory="Yes" OrderNumber="9"/>
				<ItemRef ItemOID="I_AE_ACTION" Mandatory="Yes" OrderNumber="10"/>
				<ItemRef ItemOID="I_AE_OUTCOME" Mandatory="Yes" OrderNumber="11"/>
			</ItemGroupDef>
			<ItemGroupDef Domain="CM" Name="Non-study Medications Taken" OID="IG_CM_TAKEN" Repeating="No" SASDatasetName="NSMEDTK">
				<Description>
					<TranslatedText xml:lang="fr">Medicaments non-relatéé à l'étude</TranslatedText>
					<TranslatedText xml:lang="de">Medikamente ohne Beziehung zum Studium</TranslatedText>
					<TranslatedText xml:lang="en">Non-study related medication</TranslatedText>
					<TranslatedText xml:lang="ko"/>
				</Description>
				<ItemRef ItemOID="I_CM_TAKEN" Mandatory="Yes" OrderNumber="1"/>
			</ItemGroupDef>
			<ItemGroupDef Domain="CM" Name="Prior or Concomitant Medications" OID="IG_CM" Repeating="Yes" SASDatasetName="CONMED">
				<Description>
					<TranslatedText xml:lang="fr">Médications précédentes</TranslatedText>
					<TranslatedText xml:lang="en">Concomittant medication</TranslatedText>
					<TranslatedText xml:lang="de">Vorherige Medikationen</TranslatedText>
					<TranslatedText xml:lang="ko"/>
				</Description>
				<ItemRef ItemOID="I_CM_NUMBER" Mandatory="Yes" OrderNumber="1"/>
				<ItemRef ItemOID="I_CM_NAME" Mandatory="Yes" OrderNumber="2"/>
				<ItemRef ItemOID="I_CM_DOSE" Mandatory="Yes" OrderNumber="3"/>
				<ItemRef ItemOID="I_CM_DOSEUNIT" Mandatory="Yes" OrderNumber="4"/>
				<ItemRef ItemOID="I_CM_DOSEFREQ" Mandatory="Yes" OrderNumber="5"/>
				<ItemRef ItemOID="I_CM_START" Mandatory="Yes" OrderNumber="6"/>
				<ItemRef ItemOID="I_CM_CONTINUES" Mandatory="Yes" OrderNumber="7"/>
				<ItemRef CollectionExceptionConditionOID="COND.CMSTOP.STOP_DATE" ItemOID="I_CM_STOP" Mandatory="Yes" OrderNumber="8"/>
				<ItemRef ItemOID="I_CM_IEXISTING" Mandatory="Yes" OrderNumber="9"/>
				<ItemRef ItemOID="I_CM_IAE" Mandatory="Yes" OrderNumber="10"/>
				<ItemRef ItemOID="I_CM_IPROP" Mandatory="Yes" OrderNumber="11"/>
				<ItemRef CollectionExceptionConditionOID="COND.PROHYLAXIS" ItemOID="I_CM_IPROPDESC" Mandatory="Yes" OrderNumber="12"/>
			</ItemGroupDef>
			<ItemGroupDef Domain="LB" Name="Hematology" OID="IG_LB_HEMATOLOGY" Repeating="No" SASDatasetName="LAB">
				<Description>
					<TranslatedText xml:lang="en">Hematology Lab</TranslatedText>
					<TranslatedText xml:lang="fr">Hématologie Laboratoire</TranslatedText>
					<TranslatedText xml:lang="de">Hematologie Laboratorium</TranslatedText>
					<TranslatedText xml:lang="ko"/>
				</Description>
				<ItemRef ItemOID="I_LB_NAME" Mandatory="Yes" OrderNumber="1"/>
				<ItemRef ItemOID="I_LB_ID" Mandatory="Yes" OrderNumber="2"/>
				<ItemRef ItemOID="I_LB_ACCESSION" Mandatory="Yes" OrderNumber="3"/>
				<ItemRef ItemOID="I_LB_RBC_NOTDONE" Mandatory="Yes" OrderNumber="4"/>
				<ItemRef CollectionExceptionConditionOID="COND.LB_RBC" ItemOID="I_LB_RBC" Mandatory="Yes" OrderNumber="5"/>
				<ItemRef CollectionExceptionConditionOID="COND.LB_RBC" ItemOID="I_LB_RBC_LO" Mandatory="Yes" OrderNumber="6"/>
				<ItemRef CollectionExceptionConditionOID="COND.LB_RBC" ItemOID="I_LB_RBC_HI" Mandatory="Yes" OrderNumber="7"/>
				<ItemRef ItemOID="I_LB_WBC_NOTDONE" Mandatory="Yes" OrderNumber="8"/>
				<ItemRef CollectionExceptionConditionOID="COND.LB_WBC" ItemOID="I_LB_WBC" Mandatory="Yes" OrderNumber="9"/>
				<ItemRef CollectionExceptionConditionOID="COND.LB_WBC" ItemOID="I_LB_WBC_LO" Mandatory="Yes" OrderNumber="10"/>
				<ItemRef CollectionExceptionConditionOID="COND.LB_WBC" ItemOID="I_LB_WBC_HI" Mandatory="Yes" OrderNumber="11"/>
			</ItemGroupDef>
			<ItemGroupDef Name="Complaints due to smoking" OID="IG_SMOKING_COMPLAINTS" Repeating="No">
				<Description>
					<TranslatedText xml:lang="en">Complaints related to smoking</TranslatedText>
					<TranslatedText xml:lang="fr">Plaintes en relation avec la consommation de tabac</TranslatedText>
					<TranslatedText xml:lang="de">Klagen in beziehung zum Rauchen</TranslatedText>
					<TranslatedText xml:lang="ko"/>
				</Description>
				<ItemRef ItemOID="I_BREATHING" Mandatory="No" OrderNumber="1"/>
				<ItemRef ItemOID="I_COUGHING" Mandatory="No" OrderNumber="2"/>
				<ItemRef ItemOID="I_HEART_COMPLAINTS" Mandatory="No" OrderNumber="3"/>
				<ItemRef ItemOID="I_ILNESS_DAYS_LAST_YEAR" Mandatory="No" OrderNumber="4"/>
				<ItemRef ItemOID="I_BRONCHITS" Mandatory="No" OrderNumber="5"/>
				<ItemRef ItemOID="I_PNEUMONIA" Mandatory="No" OrderNumber="6"/>
			</ItemGroupDef>
			<ItemDef DataType="integer" Name="Site Number" OID="I_SITE" SASFieldName="SITEID" SDSVarName="SITEID">
				<Description>
					<TranslatedText xml:lang="en">Site Number as assigned by CRO</TranslatedText>
				</Description>
				<Question>
					<TranslatedText xml:lang="en">Site number</TranslatedText>
					<TranslatedText xml:lang="fr">Numéro de la clinique</TranslatedText>
					<TranslatedText xml:lang="de">Klinik Nummer</TranslatedText>
					<TranslatedText xml:lang="ko"/>
				</Question>
				<Alias Context="SDTM" Name="SITEID"/>
			</ItemDef>
			<ItemDef DataType="text" Length="11" Name="Subject ID" OID="I_SUBJECTID" SASFieldName="USUBJID" SDSVarName="USUBJID">
				<Question>
					<TranslatedText xml:lang="en">Subject ID</TranslatedText>
					<TranslatedText xml:lang="de">ID des Patienten</TranslatedText>
					<TranslatedText xml:lang="fr">ID du Sujet</TranslatedText>
					<TranslatedText xml:lang="ko"/>
				</Question>
				<Alias Context="SDTM" Name="USUBJID"/>
			</ItemDef>
			<ItemDef DataType="text" Length="3" Name="Subject Initials" OID="I_SUBJECTINITIALS" SASFieldName="SUBJINIT">
				<Question>
					<TranslatedText xml:lang="en">Subject Initials</TranslatedText>
					<TranslatedText xml:lang="fr">Initiales du Sujet</TranslatedText>
					<TranslatedText xml:lang="de">Initialen des Patienten</TranslatedText>
					<TranslatedText xml:lang="ko"/>
				</Question>
			</ItemDef>
			<ItemDef DataType="date" Name="Visit Date" OID="I_VISIT" SASFieldName="VISITDAT" SDSVarName="RFSTDTC">
				<Question>
					<TranslatedText xml:lang="en">Visit Date</TranslatedText>
					<TranslatedText xml:lang="fr">Date de Visite</TranslatedText>
					<TranslatedText xml:lang="de">Besuchsdatum</TranslatedText>
					<TranslatedText xml:lang="ko"/>
				</Question>
			</ItemDef>
			<ItemDef DataType="time" Name="Visit Time" OID="I_VISITTIME" SASFieldName="VISITTIM">
				<Question>
					<TranslatedText xml:lang="en">Visit Start Time</TranslatedText>
					<TranslatedText xml:lang="fr">Temps de Visite</TranslatedText>
					<TranslatedText xml:lang="de">Besuchszeit</TranslatedText>
					<TranslatedText xml:lang="ko"/>
				</Question>
			</ItemDef>
			<ItemDef DataType="date" Name="Date of Birth" OID="I_BRTHDT" SASFieldName="DOB" SDSVarName="BRTHDTC">
				<Question>
					<TranslatedText xml:lang="en">Date of Birth</TranslatedText>
					<TranslatedText xml:lang="fr">Date de Naissance</TranslatedText>
					<TranslatedText xml:lang="de">Geburtsdatum</TranslatedText>
					<TranslatedText xml:lang="ko"/>
				</Question>
			</ItemDef>
			<ItemDef DataType="text" Length="1" Name="DM - Sex" OID="I_SEX" SASFieldName="GENDER" SDSVarName="SEX">
				<Question>
					<TranslatedText xml:lang="en">Sex</TranslatedText>
					<TranslatedText xml:lang="fr">Genre</TranslatedText>
					<TranslatedText xml:lang="de">Geschlecht</TranslatedText>
					<TranslatedText xml:lang="ko"/>
				</Question>
				<CodeListRef CodeListOID="CL_SEX"/>
			</ItemDef>
			<ItemDef DataType="text" Length="20" Name="DM - Race" OID="I_RACE" SASFieldName="RACE" SDSVarName="RACE">
				<Question>
					<TranslatedText xml:lang="en">Race</TranslatedText>
					<TranslatedText xml:lang="fr">Appartenance ethnique</TranslatedText>
					<TranslatedText xml:lang="de">Ethnischer Ursprung</TranslatedText>
					<TranslatedText xml:lang="ko"/>
				</Question>
				<CodeListRef CodeListOID="CL_RACE"/>
			</ItemDef>
			<ItemDef DataType="boolean" Name="Smoking" OID="I_SMOKING" SASFieldName="NRSMOKES" SDSVarName="SUDOSE">
				<Question>
					<TranslatedText xml:lang="en">Check when the subject is a smoker</TranslatedText>
					<TranslatedText xml:lang="fr">Marquez quand le sujet est fumeur</TranslatedText>
					<TranslatedText xml:lang="de">Markieren wenn der Patient Raucher ist</TranslatedText>
					<TranslatedText xml:lang="ko"/>
				</Question>
			</ItemDef>
			<ItemDef DataType="text" Length="6" Name="Number of cigarettes per day" OID="I_NR_CIGARETTES">
				<Question>
					<TranslatedText xml:lang="en">Number of cigarettes per day</TranslatedText>
					<TranslatedText xml:lang="fr">Nombre de cigarettes par jour</TranslatedText>
					<TranslatedText xml:lang="de">Zahl der Zigaretten pro Tag</TranslatedText>
					<TranslatedText xml:lang="ko"/>
				</Question>
				<CodeListRef CodeListOID="CL_SMOKING"/>
			</ItemDef>
			<ItemDef DataType="text" Length="20" Name="Drinking" OID="I_DRINKING" SASFieldName="DRINKS" SDSVarName="SUDOSE">
				<Question>
					<TranslatedText xml:lang="en">Number of alcoholic drinks per day</TranslatedText>
					<TranslatedText xml:lang="fr">Nombre de boissons alcoolique par jour</TranslatedText>
					<TranslatedText xml:lang="de">Zahl der alkoholische Getränke pro Tag</TranslatedText>
					<TranslatedText xml:lang="ko"/>
				</Question>
				<CodeListRef CodeListOID="CL_DRINKING"/>
			</ItemDef>
			<ItemDef DataType="integer" Length="3" Name="Systolic BP" OID="I_SYSBP" SASFieldName="SYSTL" SDSVarName="VSORRES">
				<Question>
					<TranslatedText xml:lang="en">Systolic blood pressure</TranslatedText>
					<TranslatedText xml:lang="fr">Tension artérielle systolique</TranslatedText>
					<TranslatedText xml:lang="de">Systolischer Blutdruck</TranslatedText>
					<TranslatedText xml:lang="ko"/>
				</Question>
				<MeasurementUnitRef MeasurementUnitOID="MU_MMHG"/>
				<RangeCheck Comparator="LT" SoftHard="Hard">
					<CheckValue>180</CheckValue>
					<MeasurementUnitRef MeasurementUnitOID="MU_MMHG"/>
					<ErrorMessage>
						<TranslatedText xml:lang="en">The value should be below 180</TranslatedText>
						<TranslatedText xml:lang="fr">La valeur doit être en dessous de 180</TranslatedText>
						<TranslatedText xml:lang="de">Der Wert sollte unter 180 sein</TranslatedText>
						<TranslatedText xml:lang="ko"/>
					</ErrorMessage>
				</RangeCheck>
				<Alias Context="SDTM" Name="VSORRES where VSTESTCD=SYSBP"/>
				<Alias Context="CDASH" Name="SYSBP"/>
			</ItemDef>
			<ItemDef DataType="integer" Length="3" Name="Diastolic BP" OID="I_DIABP" SASFieldName="DIASYSTL" SDSVarName="VSORRES">
				<Question>
					<TranslatedText xml:lang="en">Diastolic blood pressure</TranslatedText>
					<TranslatedText xml:lang="fr">Tension artérielle diastolique</TranslatedText>
					<TranslatedText xml:lang="de">Diastolischer Blutdruck</TranslatedText>
					<TranslatedText xml:lang="ko"/>
				</Question>
				<MeasurementUnitRef MeasurementUnitOID="MU_MMHG"/>
				<RangeCheck Comparator="LT" SoftHard="Hard">
					<CheckValue>120</CheckValue>
					<MeasurementUnitRef MeasurementUnitOID="MU_MMHG"/>
					<ErrorMessage>
						<TranslatedText xml:lang="en">The value should be below 120</TranslatedText>
						<TranslatedText xml:lang="fr">La valeur doit être en dessous de 120</TranslatedText>
						<TranslatedText xml:lang="de">Der Wert sollte unter 120 sein</TranslatedText>
						<TranslatedText xml:lang="ko"/>
					</ErrorMessage>
				</RangeCheck>
				<Alias Context="SDTM" Name="VSORRES where VSTESTCD=DIABP"/>
			</ItemDef>
			<ItemDef DataType="URI" Length="3" Name="Link to XRay" OID="I_XRAY">
				<Question>
					<TranslatedText xml:lang="en">Server or File location of X-Ray photograph</TranslatedText>
					<TranslatedText xml:lang="fr">Location (fichier ou URL) de la photographie rayons X</TranslatedText>
					<TranslatedText xml:lang="de">Datei oder URL des Röntgenbilds</TranslatedText>
					<TranslatedText xml:lang="ko"/>
				</Question>
			</ItemDef>
			<ItemDef DataType="integer" Length="3" Name="Height" OID="I_HEIGHT" SASFieldName="HEIGHT" SDSVarName="VSORRES">
				<Question>
					<TranslatedText xml:lang="en">Height</TranslatedText>
					<TranslatedText xml:lang="fr">Taille</TranslatedText>
					<TranslatedText xml:lang="de">Größe</TranslatedText>
					<TranslatedText xml:lang="ko"/>
				</Question>
				<MeasurementUnitRef MeasurementUnitOID="MU_INCHES"/>
				<RangeCheck Comparator="LT" SoftHard="Hard">
					<CheckValue>220</CheckValue>
					<MeasurementUnitRef MeasurementUnitOID="MU_CM"/>
					<ErrorMessage>
						<TranslatedText xml:lang="en">The height value should be below 220 cm</TranslatedText>
						<TranslatedText xml:lang="fr">La valeur de la taille doit être en dessous de 220 cm</TranslatedText>
						<TranslatedText xml:lang="de">Der Länge sollte unter 220 cm liegen</TranslatedText>
						<TranslatedText xml:lang="ko"/>
					</ErrorMessage>
				</RangeCheck>
				<RangeCheck Comparator="LT" SoftHard="Hard">
					<CheckValue>90</CheckValue>
					<MeasurementUnitRef MeasurementUnitOID="MU_INCHES"/>
					<ErrorMessage>
						<TranslatedText xml:lang="en">The height value should be below 90 inches</TranslatedText>
						<TranslatedText xml:lang="fr">La valeur de la taille doit être en dessous de 90 pouces</TranslatedText>
						<TranslatedText xml:lang="de">Der Länge sollte unter 90 Zoll liegen</TranslatedText>
						<TranslatedText xml:lang="ko"/>
					</ErrorMessage>
				</RangeCheck>
				<Alias Context="SDTM" Name="VSORRES where VSTESTCD=HEIGHT"/>
			</ItemDef>
			<ItemDef DataType="integer" Length="3" Name="Weight" OID="I_WEIGHT" SASFieldName="WEIGHT" SDSVarName="VSORRES">
				<Question>
					<TranslatedText xml:lang="en">Weight</TranslatedText>
					<TranslatedText xml:lang="fr">Poids</TranslatedText>
					<TranslatedText xml:lang="de">Gewicht</TranslatedText>
					<TranslatedText xml:lang="ko"/>
				</Question>
				<MeasurementUnitRef MeasurementUnitOID="MU_POUNDS"/>
				<RangeCheck Comparator="LT" SoftHard="Hard">
					<CheckValue>150</CheckValue>
					<MeasurementUnitRef MeasurementUnitOID="MU_KG"/>
					<ErrorMessage>
						<TranslatedText xml:lang="en">The weight value should be below 150 kg</TranslatedText>
						<TranslatedText xml:lang="fr">La valeur du poids doit être en dessous de 150 kilo</TranslatedText>
						<TranslatedText xml:lang="de">das Gewicht sollte unter 150 Kg liegen</TranslatedText>
						<TranslatedText xml:lang="ko"/>
					</ErrorMessage>
				</RangeCheck>
				<RangeCheck Comparator="LT" SoftHard="Hard">
					<CheckValue>300</CheckValue>
					<MeasurementUnitRef MeasurementUnitOID="MU_POUNDS"/>
					<ErrorMessage>
						<TranslatedText xml:lang="en">The weight should be below 300 Pounds</TranslatedText>
						<TranslatedText xml:lang="fr">La valeur du poids doit être en dessous de 300 livres</TranslatedText>
						<TranslatedText xml:lang="de">das Gewicht sollte unter 300 Pfund liegen</TranslatedText>
						<TranslatedText xml:lang="ko"/>
					</ErrorMessage>
				</RangeCheck>
				<Alias Context="SDTM" Name="VSORRES where VSTESTCD=WEIGHT"/>
			</ItemDef>
			<ItemDef DataType="integer" Length="1" Name="Diary Day" OID="I_DAY" SDSVarName="QSDY">
				<Question>
					<TranslatedText xml:lang="en">Day</TranslatedText>
					<TranslatedText xml:lang="fr">Jour</TranslatedText>
					<TranslatedText xml:lang="de">Tag</TranslatedText>
					<TranslatedText xml:lang="ko"/>
				</Question>
				<CodeListRef CodeListOID="CL_DIARY_DAY"/>
			</ItemDef>
			<ItemDef DataType="date" Name="Diary Date" OID="I_DATE" SDSVarName="QSDTC">
				<Question>
					<TranslatedText xml:lang="en">Date</TranslatedText>
					<TranslatedText xml:lang="fr">Date</TranslatedText>
					<TranslatedText xml:lang="de">Datum</TranslatedText>
					<TranslatedText xml:lang="ko"/>
				</Question>
			</ItemDef>
			<ItemDef DataType="integer" Length="1" Name="Scale" OID="I_DIARY" SDSVarName="QSORRES">
				<Question>
					<TranslatedText xml:lang="en">Discomfort Severity</TranslatedText>
					<TranslatedText xml:lang="de">Höhe der Beschwerten</TranslatedText>
					<TranslatedText xml:lang="fr">Niveau de décomfort</TranslatedText>
					<TranslatedText xml:lang="ko"/>
				</Question>
				<CodeListRef CodeListOID="CL_DIARY"/>
			</ItemDef>
			<ItemDef DataType="integer" Length="1" Name="Adverse Event Experienced" OID="I_AE_OCCURRED" SASFieldName="AEEVTEXP">
				<Question>
					<TranslatedText xml:lang="en">Has the subject experienced any adverse events</TranslatedText>
					<TranslatedText xml:lang="fr">Est ce que le sujet a eu des événements défavorables</TranslatedText>
					<TranslatedText xml:lang="de">Hat der Patient unerwünschte Vorfälle</TranslatedText>
					<TranslatedText xml:lang="ko"/>
				</Question>
				<CodeListRef CodeListOID="CL_NOYES"/>
			</ItemDef>
			<ItemDef DataType="integer" Length="3" Name="Adverse Event Number" OID="I_AE_EVENT" SDSVarName="AESPID">
				<Question>
					<TranslatedText xml:lang="en">Event No.</TranslatedText>
					<TranslatedText xml:lang="fr">Numéro de l'événement</TranslatedText>
					<TranslatedText xml:lang="de">Zahl des Vorfalls</TranslatedText>
					<TranslatedText xml:lang="ko"/>
				</Question>
			</ItemDef>
			<ItemDef DataType="text" Length="255" Name="Adverse Event Term" OID="I_AE_TERM" SDSVarName="AETERM">
				<Question>
					<TranslatedText xml:lang="en">Adverse event</TranslatedText>
					<TranslatedText xml:lang="fr">Evénement défavorable</TranslatedText>
					<TranslatedText xml:lang="de">Vorfall</TranslatedText>
					<TranslatedText xml:lang="ko"/>
				</Question>
			</ItemDef>
			<ItemDef DataType="date" Name="Adverse Event Start Date" OID="I_AE_START" SDSVarName="AESTDTC">
				<Question>
					<TranslatedText xml:lang="en">Start Date</TranslatedText>
					<TranslatedText xml:lang="fr">Date du début</TranslatedText>
					<TranslatedText xml:lang="de">Anfangsdatum</TranslatedText>
					<TranslatedText xml:lang="ko"/>
				</Question>
			</ItemDef>
			<ItemDef DataType="date" Name="Adverse Event Stop Date" OID="I_AE_STOP" SDSVarName="AEENDTC">
				<Question>
					<TranslatedText xml:lang="en">Stop Date</TranslatedText>
					<TranslatedText xml:lang="fr">Date de la fin</TranslatedText>
					<TranslatedText xml:lang="de">Datum des Endes</TranslatedText>
					<TranslatedText xml:lang="ko"/>
				</Question>
			</ItemDef>
			<ItemDef DataType="durationDatetime" Name="AE duration" OID="I_AE_DURATION">
				<Question>
					<TranslatedText xml:lang="en">Duration of the adverse event</TranslatedText>
					<TranslatedText xml:lang="fr">Durée de l'événement défavorable</TranslatedText>
					<TranslatedText xml:lang="de">Dauer des Vorfalls</TranslatedText>
					<TranslatedText xml:lang="ko"/>
				</Question>
			</ItemDef>
			<ItemDef DataType="integer" Length="1" Name="Adverse Event Continues" OID="I_AE_CONTINUES" SDSVarName="AEENRF">
				<Question>
					<TranslatedText xml:lang="en">Is the adverse event still continuing</TranslatedText>
					<TranslatedText xml:lang="fr">Est ce que l'événement continue toujours</TranslatedText>
					<TranslatedText xml:lang="de">Ist der Vorfall heute noch kontinuierend</TranslatedText>
					<TranslatedText xml:lang="ko"/>
				</Question>
				<CodeListRef CodeListOID="CL_NOYES"/>
			</ItemDef>
			<ItemDef DataType="integer" Length="1" Name="Adverse Event Serious" OID="I_AE_SERIOUS" SDSVarName="AESER">
				<Question>
					<TranslatedText xml:lang="en">Was event serious</TranslatedText>
					<TranslatedText xml:lang="fr">Est ce que l'événement était sérieux</TranslatedText>
					<TranslatedText xml:lang="de">War der Vorfall ernsthaft</TranslatedText>
					<TranslatedText xml:lang="ko"/>
				</Question>
				<CodeListRef CodeListOID="CL_NOYES"/>
			</ItemDef>
			<ItemDef DataType="integer" Length="1" Name="Adverse Event Severity" OID="I_AE_SEVERITY" SDSVarName="AESEV">
				<Question>
					<TranslatedText xml:lang="en">Severity</TranslatedText>
					<TranslatedText xml:lang="fr">Sévérité</TranslatedText>
					<TranslatedText xml:lang="de">Ernsthaftigkeit</TranslatedText>
					<TranslatedText xml:lang="ko"/>
				</Question>
				<CodeListRef CodeListOID="CL_AE_SEVERITY"/>
			</ItemDef>
			<ItemDef DataType="integer" Length="1" Name="Adverse Event Related" OID="I_AE_RELATED" SDSVarName="AEREL">
				<Question>
					<TranslatedText xml:lang="en">Is there a reasonable possibility that the AE may have been caused by the study drug</TranslatedText>
					<TranslatedText xml:lang="fr">Est ce que il y a une possibilité raisonnable que l' événement défavorable a pu avoir été provoqué par la drogue de l'étude</TranslatedText>
					<TranslatedText xml:lang="de">Gibt es eine angemessene Möglichkeit, dass der Vorfall durch das Medikament des Studiums verursacht werdet</TranslatedText>
					<TranslatedText xml:lang="ko"/>
				</Question>
				<CodeListRef CodeListOID="CL_NOYES"/>
			</ItemDef>
			<ItemDef DataType="integer" Length="1" Name="Adverse Event Action Taken" OID="I_AE_ACTION" SDSVarName="AEACN">
				<Question>
					<TranslatedText xml:lang="en">Action taken with study drug</TranslatedText>
					<TranslatedText xml:lang="fr">Mesure prise avec le medicament de l'étude</TranslatedText>
					<TranslatedText xml:lang="de">Ergriffene Maßnahmen mit Medikament des Studiums</TranslatedText>
					<TranslatedText xml:lang="ko"/>
				</Question>
				<CodeListRef CodeListOID="CL_AE_ACTION"/>
			</ItemDef>
			<ItemDef DataType="integer" Length="1" Name="Adverse Event Subject Outcome" OID="I_AE_OUTCOME" SDSVarName="AEOUT">
				<Question>
					<TranslatedText xml:lang="en">Subject outcome</TranslatedText>
					<TranslatedText xml:lang="fr">Résultats du sujet</TranslatedText>
					<TranslatedText xml:lang="de">Patient Resultate</TranslatedText>
					<TranslatedText xml:lang="ko"/>
				</Question>
				<CodeListRef CodeListOID="CL_AE_OUTCOME"/>
			</ItemDef>
			<ItemDef DataType="integer" Length="1" Name="Non-study Medications taken" OID="I_CM_TAKEN">
				<Question>
					<TranslatedText xml:lang="en">Were any non-study medications taken</TranslatedText>
					<TranslatedText xml:lang="fr">Est ce que le sujet a pris des medicament non-relatéé à l'étude</TranslatedText>
					<TranslatedText xml:lang="de">Hat der Patient Medikamente genommen, die keine Beziehung zum Studium haben</TranslatedText>
					<TranslatedText xml:lang="ko"/>
				</Question>
				<CodeListRef CodeListOID="CL_NOYES"/>
			</ItemDef>
			<ItemDef DataType="integer" Length="3" Name="Medication Number" OID="I_CM_NUMBER" SDSVarName="CMSPID">
				<Question>
					<TranslatedText xml:lang="en">Medication No.</TranslatedText>
					<TranslatedText xml:lang="fr">No. du Médicament</TranslatedText>
					<TranslatedText xml:lang="de">Nummer des Medikaments</TranslatedText>
					<TranslatedText xml:lang="ko"/>
				</Question>
			</ItemDef>
			<ItemDef DataType="text" Length="255" Name="Medication Name" OID="I_CM_NAME" SDSVarName="CMTRT">
				<Question>
					<TranslatedText xml:lang="en">Drug Name (Brand or Generic)</TranslatedText>
					<TranslatedText xml:lang="fr">Nom de la Drogue (Marque ou générique)</TranslatedText>
					<TranslatedText xml:lang="de">Name des Medikaments (Marke oder Generisch)</TranslatedText>
					<TranslatedText xml:lang="ko"/>
				</Question>
			</ItemDef>
			<ItemDef DataType="text" Length="20" Name="Medication Dose" OID="I_CM_DOSE" SDSVarName="CMDOSE">
				<Question>
					<TranslatedText xml:lang="en">Total Dose Per Freqeuncy Checked</TranslatedText>
					<TranslatedText xml:lang="fr">Dose totale par fréquence vérifié</TranslatedText>
					<TranslatedText xml:lang="de">Totale Dosis per überprüfte Frequenz</TranslatedText>
					<TranslatedText xml:lang="ko"/>
				</Question>
			</ItemDef>
			<ItemDef DataType="text" Length="20" Name="Medication Dose Units" OID="I_CM_DOSEUNIT" SDSVarName="CMDOSEU">
				<Question>
					<TranslatedText xml:lang="en">Unit</TranslatedText>
					<TranslatedText xml:lang="fr">Unité</TranslatedText>
					<TranslatedText xml:lang="de">Einheit</TranslatedText>
					<TranslatedText xml:lang="ko"/>
				</Question>
			</ItemDef>
			<ItemDef DataType="integer" Length="1" Name="Medication Dose Frequency" OID="I_CM_DOSEFREQ" SDSVarName="CMDOSFRQ">
				<Question>
					<TranslatedText xml:lang="en">Frequency</TranslatedText>
					<TranslatedText xml:lang="fr">Fréquence</TranslatedText>
					<TranslatedText xml:lang="de">Frequenz</TranslatedText>
					<TranslatedText xml:lang="ko"/>
				</Question>
				<CodeListRef CodeListOID="CL_CM_FREQUENCY"/>
			</ItemDef>
			<ItemDef DataType="date" Name="Medication Start Date" OID="I_CM_START" SDSVarName="CMSTDTC">
				<Question>
					<TranslatedText xml:lang="en">Start Date</TranslatedText>
					<TranslatedText xml:lang="fr">Date du début</TranslatedText>
					<TranslatedText xml:lang="de">Anfangsdatum</TranslatedText>
					<TranslatedText xml:lang="ko"/>
				</Question>
			</ItemDef>
			<ItemDef DataType="date" Name="Medication Stop Date" OID="I_CM_STOP" SDSVarName="CMENDTC">
				<Question>
					<TranslatedText xml:lang="en">Stop Date</TranslatedText>
					<TranslatedText xml:lang="fr">Date de la fin</TranslatedText>
					<TranslatedText xml:lang="de">Datum des Endes</TranslatedText>
					<TranslatedText xml:lang="ko"/>
				</Question>
			</ItemDef>
			<ItemDef DataType="integer" Length="1" Name="Medication Continues" OID="I_CM_CONTINUES" SDSVarName="CMENRF">
				<Question>
					<TranslatedText xml:lang="en">Is medication still continuing</TranslatedText>
					<TranslatedText xml:lang="fr">Est ce que le médicament est utilisé à ce jour</TranslatedText>
					<TranslatedText xml:lang="de">Benützt der Patient dieses Medikament noch immer</TranslatedText>
					<TranslatedText xml:lang="ko"/>
				</Question>
				<CodeListRef CodeListOID="CL_NOYES"/>
			</ItemDef>
			<ItemDef DataType="integer" Length="3" Name="Pre-exisitng Illness" OID="I_CM_IEXISTING" SASFieldName="CMINDCPI" SDSVarName="CMINDC">
				<Question>
					<TranslatedText xml:lang="en">Pre-existing illness No.</TranslatedText>
					<TranslatedText xml:lang="fr">No. Maladie se produisant avant</TranslatedText>
					<TranslatedText xml:lang="de">Vorherige Krankheit Nummer</TranslatedText>
				</Question>
			</ItemDef>
			<ItemDef DataType="integer" Length="3" Name="Adverse Event" OID="I_CM_IAE" SASFieldName="CMINDCAE" SDSVarName="CMINDC">
				<Question>
					<TranslatedText xml:lang="en">Adverse Event No.</TranslatedText>
					<TranslatedText xml:lang="fr">No. de l'événement défavorable</TranslatedText>
					<TranslatedText xml:lang="de">Vorfall Nummer</TranslatedText>
					<TranslatedText xml:lang="ko"/>
				</Question>
			</ItemDef>
			<ItemDef DataType="integer" Length="1" Name="Prophylaxis" OID="I_CM_IPROP" SASFieldName="CMINDCPY" SDSVarName="CMINDC">
				<Question>
					<TranslatedText xml:lang="en">Prophylaxis</TranslatedText>
					<TranslatedText xml:lang="fr">Prophylaxie</TranslatedText>
					<TranslatedText xml:lang="de">Prophylaxis</TranslatedText>
					<TranslatedText xml:lang="ko"/>
				</Question>
				<CodeListRef CodeListOID="CL_NOYES"/>
			</ItemDef>
			<ItemDef DataType="text" Length="20" Name="Prophylaxis Description" OID="I_CM_IPROPDESC" SASFieldName="CMINDCPD" SDSVarName="CMINDC">
				<Question>
					<TranslatedText xml:lang="en">Prophylaxis, Specify</TranslatedText>
					<TranslatedText xml:lang="fr">Prophylaxie, Description</TranslatedText>
					<TranslatedText xml:lang="de">Prophylaxis, Beschreibung</TranslatedText>
					<TranslatedText xml:lang="ko"/>
				</Question>
			</ItemDef>
			<ItemDef DataType="text" Length="20" Name="Laboratory Name" OID="I_LB_NAME" SDSVarName="LBNAM">
				<Question>
					<TranslatedText xml:lang="en">Laboratory Name</TranslatedText>
					<TranslatedText xml:lang="fr">Nom du laboratoire</TranslatedText>
					<TranslatedText xml:lang="de">Name des Labors</TranslatedText>
					<TranslatedText xml:lang="ko"/>
				</Question>
			</ItemDef>
			<ItemDef DataType="text" Length="5" Name="Laboratory ID" OID="I_LB_ID">
				<Question>
					<TranslatedText xml:lang="en">Laboratory ID</TranslatedText>
					<TranslatedText xml:lang="fr">Identification du laboratoire</TranslatedText>
					<TranslatedText xml:lang="de">Identifikation des Labors</TranslatedText>
					<TranslatedText xml:lang="ko"/>
				</Question>
			</ItemDef>
			<ItemDef DataType="integer" Length="5" Name="Accession Number" OID="I_LB_ACCESSION">
				<Question>
					<TranslatedText xml:lang="en">Accession #</TranslatedText>
					<TranslatedText xml:lang="fr">Numéro de l'entréé</TranslatedText>
					<TranslatedText xml:lang="de">Zugangszahl</TranslatedText>
					<TranslatedText xml:lang="ko"/>
				</Question>
			</ItemDef>
			<ItemDef DataType="float" Length="8" Name="RBC" OID="I_LB_RBC" SASFieldName="RBC" SDSVarName="LBORRES" SignificantDigits="3">
				<Question>
					<TranslatedText xml:lang="en">Red Blood Count</TranslatedText>
					<TranslatedText xml:lang="fr">Compte des corps rouges dans le sang</TranslatedText>
					<TranslatedText xml:lang="de">Zahl der roten Blutkörper</TranslatedText>
					<TranslatedText xml:lang="ko"/>
				</Question>
				<RangeCheck Comparator="LE" SoftHard="Hard">
					<CheckValue>8.0</CheckValue>
					<MeasurementUnitRef MeasurementUnitOID="MU_RBC"/>
					<ErrorMessage>
						<TranslatedText xml:lang="en">The value should be between 2.0 and 8.0</TranslatedText>
						<TranslatedText xml:lang="fr">La valuer doit être entre 2.0 et 8.0</TranslatedText>
						<TranslatedText xml:lang="de">Der Wert sollte zwichen 2.0 und 8.0 sein</TranslatedText>
						<TranslatedText xml:lang="ko"/>
					</ErrorMessage>
				</RangeCheck>
				<RangeCheck Comparator="GE" SoftHard="Hard">
					<CheckValue>2.0</CheckValue>
					<MeasurementUnitRef MeasurementUnitOID="MU_RBC"/>
					<ErrorMessage>
						<TranslatedText xml:lang="en">The value should be between 2.0 and 8.0</TranslatedText>
						<TranslatedText xml:lang="fr">La valuer doit être entre 2.0 et 8.0</TranslatedText>
						<TranslatedText xml:lang="de">Der Wert sollte zwichen 2.0 und 8.0 sein</TranslatedText>
						<TranslatedText xml:lang="ko"/>
					</ErrorMessage>
				</RangeCheck>
				<RangeCheck Comparator="LE" SoftHard="Soft">
					<CheckValue>6.5</CheckValue>
					<MeasurementUnitRef MeasurementUnitOID="MU_RBC"/>
					<ErrorMessage>
						<TranslatedText xml:lang="en">The value should be between 4.0 and 6.5</TranslatedText>
						<TranslatedText xml:lang="fr">La valuer doit être entre 4.0 et 6.5</TranslatedText>
						<TranslatedText xml:lang="de">Der Wert sollte zwischen 4.0 und 6.5 sein</TranslatedText>
						<TranslatedText xml:lang="ko"/>
					</ErrorMessage>
				</RangeCheck>
				<RangeCheck Comparator="GE" SoftHard="Soft">
					<CheckValue>4.0</CheckValue>
					<MeasurementUnitRef MeasurementUnitOID="MU_RBC"/>
					<ErrorMessage>
						<TranslatedText xml:lang="en">The value should be between 4.0 and 6.5</TranslatedText>
						<TranslatedText xml:lang="fr">La valuer doit être entre 4.0 et 6.5</TranslatedText>
						<TranslatedText xml:lang="de">Der Wert sollte zwischen 4.0 und 6.5 sein</TranslatedText>
						<TranslatedText xml:lang="ko"/>
					</ErrorMessage>
				</RangeCheck>
			</ItemDef>
			<ItemDef DataType="float" Length="8" Name="RBC Normal Range Lo" OID="I_LB_RBC_LO" SASFieldName="RBCLOW" SDSVarName="LBORNRLO" SignificantDigits="3">
				<Question>
					<TranslatedText xml:lang="en">Red Blood Count, Normal Range, Low</TranslatedText>
					<TranslatedText xml:lang="fr">Compte des corps rouges dans le sang, gamme normale, basse</TranslatedText>
					<TranslatedText xml:lang="de">Zahl der roten Blutkörper, Normalniveau, Unten</TranslatedText>
					<TranslatedText xml:lang="ko"/>
				</Question>
			</ItemDef>
			<ItemDef DataType="float" Length="8" Name="RBC Normal Range Hi" OID="I_LB_RBC_HI" SASFieldName="RBCHIGH" SDSVarName="LBORNRHI" SignificantDigits="3">
				<Question>
					<TranslatedText xml:lang="en">Red Blood Count, Normal Range, High</TranslatedText>
					<TranslatedText xml:lang="fr">Compte des corps rouges dans le sang, gamme normale, haute</TranslatedText>
					<TranslatedText xml:lang="de">Zahl der roten Blutkörper, Normalniveau, Oben</TranslatedText>
					<TranslatedText xml:lang="ko"/>
				</Question>
			</ItemDef>
			<ItemDef DataType="boolean" Name="RBC Done" OID="I_LB_RBC_NOTDONE" SASFieldName="RBCNOTDN" SDSVarName="LBSTAT">
				<Question>
					<TranslatedText xml:lang="en">Check when not done</TranslatedText>
					<TranslatedText xml:lang="fr">Marquez si ne pas faite</TranslatedText>
					<TranslatedText xml:lang="de">Markieren wenn nicht ausgeführt</TranslatedText>
					<TranslatedText xml:lang="ko"/>
				</Question>
			</ItemDef>
			<ItemDef DataType="float" Length="8" Name="WBC" OID="I_LB_WBC" SASFieldName="WBC" SDSVarName="LBORRES" SignificantDigits="3">
				<Question>
					<TranslatedText xml:lang="en">White Blood Count</TranslatedText>
					<TranslatedText xml:lang="fr">Compte des corps blanches dang le sang</TranslatedText>
					<TranslatedText xml:lang="de">Zahl der weisse Blutkörper</TranslatedText>
					<TranslatedText xml:lang="ko"/>
				</Question>
				<RangeCheck Comparator="LE" SoftHard="Hard">
					<CheckValue>15</CheckValue>
					<MeasurementUnitRef MeasurementUnitOID="MU_WBC"/>
					<ErrorMessage>
						<TranslatedText xml:lang="en">The value should be between 2 and 15</TranslatedText>
						<TranslatedText xml:lang="fr">La valuer doit être enter 2 et 15</TranslatedText>
						<TranslatedText xml:lang="de">Der Wert sollte zwischen 2 und 15 sein</TranslatedText>
						<TranslatedText xml:lang="ko"/>
					</ErrorMessage>
				</RangeCheck>
				<RangeCheck Comparator="GE" SoftHard="Hard">
					<CheckValue>2.0</CheckValue>
					<MeasurementUnitRef MeasurementUnitOID="MU_WBC"/>
					<ErrorMessage>
						<TranslatedText xml:lang="en">The value should be between 2 and 15</TranslatedText>
						<TranslatedText xml:lang="fr">La valuer doit être entre 2 et 15</TranslatedText>
						<TranslatedText xml:lang="de">Der Wert sollte zwischen 2 and 15 sein</TranslatedText>
						<TranslatedText xml:lang="ko"/>
					</ErrorMessage>
				</RangeCheck>
				<RangeCheck Comparator="LE" SoftHard="Soft">
					<CheckValue>12.0</CheckValue>
					<MeasurementUnitRef MeasurementUnitOID="MU_WBC"/>
					<ErrorMessage>
						<TranslatedText xml:lang="en">The value should be between 3.5 and 12</TranslatedText>
						<TranslatedText xml:lang="fr">La valuer dout être entre 3.5 et 12</TranslatedText>
						<TranslatedText xml:lang="de">Der Wert sollte zwischen 3.5 und 12 sein</TranslatedText>
						<TranslatedText xml:lang="ko"/>
					</ErrorMessage>
				</RangeCheck>
				<RangeCheck Comparator="GE" SoftHard="Soft">
					<CheckValue>3.5</CheckValue>
					<MeasurementUnitRef MeasurementUnitOID="MU_WBC"/>
					<ErrorMessage>
						<TranslatedText xml:lang="en">The value should be between 3.5 and 12</TranslatedText>
						<TranslatedText xml:lang="fr">La valuer doit être entre 3.5 et 12</TranslatedText>
						<TranslatedText xml:lang="en">Der Wert sollte zwischen 3.5 und 12 sein</TranslatedText>
						<TranslatedText xml:lang="ko"/>
					</ErrorMessage>
				</RangeCheck>
			</ItemDef>
			<ItemDef DataType="float" Length="8" Name="WBC Normal Range Lo" OID="I_LB_WBC_LO" SASFieldName="WBCLOW" SDSVarName="LBORNRLO" SignificantDigits="3">
				<Question>
					<TranslatedText xml:lang="en">White Blood Count, Normal Range, Low</TranslatedText>
					<TranslatedText xml:lang="fr">Compte des corps blanches dans le sang, gamme normale, basse</TranslatedText>
					<TranslatedText xml:lang="de">Zahl der weissen Blutkörper, Normalniveau, Unten</TranslatedText>
					<TranslatedText xml:lang="ko"/>
				</Question>
			</ItemDef>
			<ItemDef DataType="float" Length="8" Name="WBC Normal Range Hi" OID="I_LB_WBC_HI" SASFieldName="WBCHIGH" SDSVarName="LBORNRHI" SignificantDigits="3">
				<Question>
					<TranslatedText xml:lang="en">White Blood Count, Normal Range, High</TranslatedText>
					<TranslatedText xml:lang="fr">Compte des corps blanches dans le sang, gamme normale, haute</TranslatedText>
					<TranslatedText xml:lang="de">Zahl der weissen Blutkörper, Normalniveau, Oben</TranslatedText>
					<TranslatedText xml:lang="ko"/>
				</Question>
			</ItemDef>
			<ItemDef DataType="boolean" Name="WBC Done" OID="I_LB_WBC_NOTDONE" SDSVarName="LBSTAT">
				<Question>
					<TranslatedText xml:lang="en">Check when not Done</TranslatedText>
					<TranslatedText xml:lang="fr">Marquez si ne pas faite</TranslatedText>
					<TranslatedText xml:lang="de">Markieren wenn nicht ausgeführt</TranslatedText>
					<TranslatedText xml:lang="ko"/>
				</Question>
			</ItemDef>
			<ItemDef DataType="integer" Length="1" Name="Pregancy" OID="I_PREGNANCY">
				<Question>
					<TranslatedText xml:lang="en">Is the subject pregnant ?</TranslatedText>
					<TranslatedText xml:lang="fr">Est ce que le patient est enceinte?</TranslatedText>
					<TranslatedText xml:lang="de">Ist die Patientin schwanger ?</TranslatedText>
					<TranslatedText xml:lang="ko"/>
				</Question>
				<CodeListRef CodeListOID="CL_NOYES"/>
			</ItemDef>
			<ItemDef DataType="integer" Length="1" Name="Breath complaints" OID="I_BREATHING">
				<Question>
					<TranslatedText xml:lang="en">Breathing</TranslatedText>
					<TranslatedText xml:lang="fr">Respiration</TranslatedText>
					<TranslatedText xml:lang="de">Atmung</TranslatedText>
					<TranslatedText xml:lang="ko"/>
				</Question>
				<CodeListRef CodeListOID="CL_NOYES"/>
			</ItemDef>
			<ItemDef DataType="integer" Length="1" Name="Coughing problems" OID="I_COUGHING">
				<Question>
					<TranslatedText xml:lang="en">Coughing</TranslatedText>
					<TranslatedText xml:lang="fr">Tousser</TranslatedText>
					<TranslatedText xml:lang="de">Husten</TranslatedText>
					<TranslatedText xml:lang="ko"/>
				</Question>
				<CodeListRef CodeListOID="CL_NOYES"/>
			</ItemDef>
			<ItemDef DataType="integer" Length="2" Name="No. of bronchitis illnesses" OID="I_BRONCHITS">
				<Question>
					<TranslatedText xml:lang="en">Number of bronchitis cases during the last year</TranslatedText>
					<TranslatedText xml:lang="fr">Nombre de maladies bronchite dans la dernièrre annéé</TranslatedText>
					<TranslatedText xml:lang="de">Zahl der Bronchitis Krankheiten letztes Jahr</TranslatedText>
					<TranslatedText xml:lang="ko"/>
				</Question>
			</ItemDef>
			<ItemDef DataType="integer" Length="2" Name="No. of pneunomia illnesses" OID="I_PNEUMONIA">
				<Question>
					<TranslatedText xml:lang="en">Number of pneumonia cases last year</TranslatedText>
					<TranslatedText xml:lang="fr">Nombre de maladies pneunomie dans la dernièrre annéé</TranslatedText>
					<TranslatedText xml:lang="de">Zahl der Lungenentzundungen letztes Jahr</TranslatedText>
					<TranslatedText xml:lang="ko"/>
				</Question>
			</ItemDef>
			<ItemDef DataType="integer" Length="1" Name="Hart complaints" OID="I_HEART_COMPLAINTS">
				<Question>
					<TranslatedText xml:lang="en">Heart</TranslatedText>
					<TranslatedText xml:lang="fr">Coeur</TranslatedText>
					<TranslatedText xml:lang="de">Herz</TranslatedText>
					<TranslatedText xml:lang="ko"/>
				</Question>
				<CodeListRef CodeListOID="CL_NOYES"/>
			</ItemDef>
			<ItemDef DataType="integer" Length="3" Name="No. of illness days last year" OID="I_ILNESS_DAYS_LAST_YEAR">
				<Question>
					<TranslatedText xml:lang="en">No. of illness days last year</TranslatedText>
					<TranslatedText xml:lang="fr">Nombre de jours de maladie dans la dernière annéé</TranslatedText>
					<TranslatedText xml:lang="de">Zahl der Krankheitstage letztes Jahr</TranslatedText>
					<TranslatedText xml:lang="ko"/>
				</Question>
			</ItemDef>
			<ItemDef DataType="integer" Length="1" Name="Dizzyness at low DBP" OID="I_DIZZY">
				<Question>
					<TranslatedText xml:lang="en">Does the subject feel dizzy when standing up from a sitting position</TranslatedText>
					<TranslatedText xml:lang="fr">Est ce que le patient se sent étourdi quand il se lève d'une position assise</TranslatedText>
					<TranslatedText xml:lang="de">Fühlt der Patient sich schwindlich wenn er aufsteht aus eine sittende Position</TranslatedText>
					<TranslatedText xml:lang="ko"/>
				</Question>
				<CodeListRef CodeListOID="CL_NOYES"/>
			</ItemDef>
			<CodeList DataType="text" Name="Sex" OID="CL_SEX" SASFormatName="$SEX">
				<CodeListItem CodedValue="M">
					<Decode>
						<TranslatedText xml:lang="en">Male</TranslatedText>
						<TranslatedText xml:lang="fr">Masculin</TranslatedText>
						<TranslatedText xml:lang="de">Männlich</TranslatedText>
						<TranslatedText xml:lang="ko"/>
					</Decode>
					<Alias Context="CDASH" Name="CL.SEX Male"/>
					<Alias Context="SDTM" Name="DM.SEX=M"/>
				</CodeListItem>
				<CodeListItem CodedValue="F">
					<Decode>
						<TranslatedText xml:lang="en">Female</TranslatedText>
						<TranslatedText xml:lang="fr">Féminin</TranslatedText>
						<TranslatedText xml:lang="de">Weiblich</TranslatedText>
						<TranslatedText xml:lang="ko"/>
					</Decode>
					<Alias Context="CDASH" Name="CL.SEX Female"/>
					<Alias Context="SDTM" Name="DM.SEX=F"/>
				</CodeListItem>
				<Alias Context="CDASH" Name="CL.SEX"/>
			</CodeList>
			<CodeList DataType="text" Name="Race" OID="CL_RACE" SASFormatName="$RACE">
				<CodeListItem CodedValue="CAUCASIAN">
					<Decode>
						<TranslatedText xml:lang="en">Caucasian</TranslatedText>
						<TranslatedText xml:lang="fr">Caucasien</TranslatedText>
						<TranslatedText xml:lang="de">Kaukasisch</TranslatedText>
						<TranslatedText xml:lang="ko"/>
					</Decode>
				</CodeListItem>
				<CodeListItem CodedValue="BLACK">
					<Decode>
						<TranslatedText xml:lang="en">Black</TranslatedText>
						<TranslatedText xml:lang="fr">Noire</TranslatedText>
						<TranslatedText xml:lang="de">Schwarz</TranslatedText>
						<TranslatedText xml:lang="ko"/>
					</Decode>
				</CodeListItem>
				<CodeListItem CodedValue="ASIAN">
					<Decode>
						<TranslatedText xml:lang="en">Asian</TranslatedText>
						<TranslatedText xml:lang="fr">Asiate</TranslatedText>
						<TranslatedText xml:lang="de">Asiatisch</TranslatedText>
						<TranslatedText xml:lang="ko"/>
					</Decode>
				</CodeListItem>
				<CodeListItem CodedValue="OTHER">
					<Decode>
						<TranslatedText xml:lang="en">Other</TranslatedText>
						<TranslatedText xml:lang="fr">Autre</TranslatedText>
						<TranslatedText xml:lang="de">Sonstige</TranslatedText>
						<TranslatedText xml:lang="ko"/>
					</Decode>
				</CodeListItem>
			</CodeList>
			<CodeList DataType="text" Name="Smoking" OID="CL_SMOKING" SASFormatName="$SMOKE">
				<CodeListItem CodedValue="LT10">
					<Decode>
						<TranslatedText xml:lang="en">Less Than 10 cigarettes per day</TranslatedText>
						<TranslatedText xml:lang="fr">Moins que 10 cigarettes par jour</TranslatedText>
						<TranslatedText xml:lang="de">Weniger als 10 Zigaretten pro Tag</TranslatedText>
						<TranslatedText xml:lang="ko"/>
					</Decode>
				</CodeListItem>
				<CodeListItem CodedValue="10TO20">
					<Decode>
						<TranslatedText xml:lang="en">10 to 20 cigarettes per day</TranslatedText>
						<TranslatedText xml:lang="fr">10 à 20 cigarettes par jour</TranslatedText>
						<TranslatedText xml:lang="de">10 bis 20 Zigaretten pro Tag</TranslatedText>
						<TranslatedText xml:lang="ko"/>
					</Decode>
				</CodeListItem>
				<CodeListItem CodedValue="GT20">
					<Decode>
						<TranslatedText xml:lang="en">Greater Than 20 cigarettes per day</TranslatedText>
						<TranslatedText xml:lang="fr">Plus de 20 cigarettes par jour</TranslatedText>
						<TranslatedText xml:lang="de">Mehr als 20 Zigaretten pro Tag</TranslatedText>
						<TranslatedText xml:lang="ko"/>
					</Decode>
				</CodeListItem>
			</CodeList>
			<CodeList DataType="text" Name="Drinking" OID="CL_DRINKING" SASFormatName="$DRINK">
				<CodeListItem CodedValue="LT1" OrderNumber="1">
					<Decode>
						<TranslatedText xml:lang="en">Less Than 1 drink per day</TranslatedText>
						<TranslatedText xml:lang="fr">Moins que une boisson par jour</TranslatedText>
						<TranslatedText xml:lang="de">Weniger als ein Getränk pro Tag</TranslatedText>
					</Decode>
				</CodeListItem>
				<CodeListItem CodedValue="1TO2" OrderNumber="2">
					<Decode>
						<TranslatedText xml:lang="en">1 to 2 drinks per day</TranslatedText>
						<TranslatedText xml:lang="fr">1 à 2 boissons par jour</TranslatedText>
						<TranslatedText xml:lang="de">1 bis 2 Getränke pro Tag</TranslatedText>
					</Decode>
				</CodeListItem>
				<CodeListItem CodedValue="GT2" OrderNumber="3">
					<Decode>
						<TranslatedText xml:lang="en">Greater Than 2 drinks per day</TranslatedText>
						<TranslatedText xml:lang="fr">Plus que 2 boissons par jour</TranslatedText>
						<TranslatedText xml:lang="de">Mehr als 2 Getränke pro Tag</TranslatedText>
					</Decode>
				</CodeListItem>
			</CodeList>
			<CodeList DataType="integer" Name="Diary" OID="CL_DIARY" SASFormatName="DIARY">
				<CodeListItem CodedValue="1">
					<Decode>
						<TranslatedText xml:lang="en">None</TranslatedText>
						<TranslatedText xml:lang="fr">Aucun</TranslatedText>
						<TranslatedText xml:lang="de">Keine</TranslatedText>
						<TranslatedText xml:lang="ko"/>
					</Decode>
				</CodeListItem>
				<CodeListItem CodedValue="2">
					<Decode>
						<TranslatedText xml:lang="en">Mild</TranslatedText>
						<TranslatedText xml:lang="fr">Doux</TranslatedText>
						<TranslatedText xml:lang="de">Mild</TranslatedText>
						<TranslatedText xml:lang="ko"/>
					</Decode>
				</CodeListItem>
				<CodeListItem CodedValue="3">
					<Decode>
						<TranslatedText xml:lang="en">Moderate</TranslatedText>
						<TranslatedText xml:lang="fr">Modéré</TranslatedText>
						<TranslatedText xml:lang="de">Gemäßigt</TranslatedText>
						<TranslatedText xml:lang="ko"/>
					</Decode>
				</CodeListItem>
				<CodeListItem CodedValue="4">
					<Decode>
						<TranslatedText xml:lang="en">Severe</TranslatedText>
						<TranslatedText xml:lang="fr">Grave</TranslatedText>
						<TranslatedText xml:lang="de">Ernsthaft</TranslatedText>
						<TranslatedText xml:lang="ko"/>
					</Decode>
				</CodeListItem>
			</CodeList>
			<CodeList DataType="integer" Name="Diary Day" OID="CL_DIARY_DAY" SASFormatName="DIARYDAY">
				<CodeListItem CodedValue="1">
					<Decode>
						<TranslatedText xml:lang="en">1</TranslatedText>
						<TranslatedText xml:lang="fr">1</TranslatedText>
						<TranslatedText xml:lang="de">1</TranslatedText>
						<TranslatedText xml:lang="it">i</TranslatedText>
						<TranslatedText xml:lang="ko"/>
					</Decode>
				</CodeListItem>
				<CodeListItem CodedValue="2">
					<Decode>
						<TranslatedText xml:lang="en">2</TranslatedText>
						<TranslatedText xml:lang="fr">2</TranslatedText>
						<TranslatedText xml:lang="de">2</TranslatedText>
						<TranslatedText xml:lang="it">ii</TranslatedText>
						<TranslatedText xml:lang="ko"/>
					</Decode>
				</CodeListItem>
				<CodeListItem CodedValue="3">
					<Decode>
						<TranslatedText xml:lang="en">3</TranslatedText>
						<TranslatedText xml:lang="fr">3</TranslatedText>
						<TranslatedText xml:lang="de">3</TranslatedText>
						<TranslatedText xml:lang="it">iii</TranslatedText>
						<TranslatedText xml:lang="ko"/>
					</Decode>
				</CodeListItem>
				<CodeListItem CodedValue="4">
					<Decode>
						<TranslatedText xml:lang="en">4</TranslatedText>
						<TranslatedText xml:lang="fr">4</TranslatedText>
						<TranslatedText xml:lang="de">4</TranslatedText>
						<TranslatedText xml:lang="it">iv</TranslatedText>
						<TranslatedText xml:lang="ko"/>
					</Decode>
				</CodeListItem>
				<CodeListItem CodedValue="5">
					<Decode>
						<TranslatedText xml:lang="en">5</TranslatedText>
						<TranslatedText xml:lang="fr">5</TranslatedText>
						<TranslatedText xml:lang="de">5</TranslatedText>
						<TranslatedText xml:lang="it">v</TranslatedText>
						<TranslatedText xml:lang="ko"/>
					</Decode>
				</CodeListItem>
				<CodeListItem CodedValue="6">
					<Decode>
						<TranslatedText xml:lang="en">6</TranslatedText>
						<TranslatedText xml:lang="fr">6</TranslatedText>
						<TranslatedText xml:lang="de">6</TranslatedText>
						<TranslatedText xml:lang="it">vi</TranslatedText>
						<TranslatedText xml:lang="ko"/>
					</Decode>
				</CodeListItem>
				<CodeListItem CodedValue="7">
					<Decode>
						<TranslatedText xml:lang="en">7</TranslatedText>
						<TranslatedText xml:lang="fr">7</TranslatedText>
						<TranslatedText xml:lang="de">7</TranslatedText>
						<TranslatedText xml:lang="it">vii</TranslatedText>
						<TranslatedText xml:lang="ko"/>
					</Decode>
				</CodeListItem>
			</CodeList>
			<CodeList DataType="integer" Name="No Yes" OID="CL_NOYES" SASFormatName="NOYES">
				<CodeListItem CodedValue="0">
					<Decode>
						<TranslatedText xml:lang="en">No</TranslatedText>
						<TranslatedText xml:lang="fr">Non</TranslatedText>
						<TranslatedText xml:lang="de">Nein</TranslatedText>
						<TranslatedText xml:lang="ko"/>
					</Decode>
				</CodeListItem>
				<CodeListItem CodedValue="1">
					<Decode>
						<TranslatedText xml:lang="en">Yes</TranslatedText>
						<TranslatedText xml:lang="fr">Oui</TranslatedText>
						<TranslatedText xml:lang="de">Ja</TranslatedText>
						<TranslatedText xml:lang="ko"/>
					</Decode>
				</CodeListItem>
			</CodeList>
			<CodeList DataType="integer" Name="Adverse Event Severity" OID="CL_AE_SEVERITY" SASFormatName="AESEV">
				<CodeListItem CodedValue="1">
					<Decode>
						<TranslatedText xml:lang="en">Mild</TranslatedText>
						<TranslatedText xml:lang="fr">Doux</TranslatedText>
						<TranslatedText xml:lang="de">Mild</TranslatedText>
						<TranslatedText xml:lang="ko"/>
					</Decode>
				</CodeListItem>
				<CodeListItem CodedValue="2">
					<Decode>
						<TranslatedText xml:lang="en">Moderate</TranslatedText>
						<TranslatedText xml:lang="fr">Modéré</TranslatedText>
						<TranslatedText xml:lang="de">Gemäßigt</TranslatedText>
						<TranslatedText xml:lang="ko"/>
					</Decode>
				</CodeListItem>
				<CodeListItem CodedValue="3">
					<Decode>
						<TranslatedText xml:lang="en">Severe</TranslatedText>
						<TranslatedText xml:lang="fr">Grave</TranslatedText>
						<TranslatedText xml:lang="de">Ernsthaft</TranslatedText>
						<TranslatedText xml:lang="ko"/>
					</Decode>
				</CodeListItem>
			</CodeList>
			<CodeList DataType="integer" Name="Adverse Event Action Taken" OID="CL_AE_ACTION" SASFormatName="AEACTION">
				<CodeListItem CodedValue="1">
					<Decode>
						<TranslatedText xml:lang="en">None</TranslatedText>
						<TranslatedText xml:lang="fr">Aucun</TranslatedText>
						<TranslatedText xml:lang="de">Keine</TranslatedText>
						<TranslatedText xml:lang="ko"/>
					</Decode>
				</CodeListItem>
				<CodeListItem CodedValue="2">
					<Decode>
						<TranslatedText xml:lang="en">Study drug regimen changed</TranslatedText>
						<TranslatedText xml:lang="fr">Regime de l'étude changé</TranslatedText>
						<TranslatedText xml:lang="de">Regime des Studiums geändert</TranslatedText>
						<TranslatedText xml:lang="ko"/>
					</Decode>
				</CodeListItem>
				<CodeListItem CodedValue="3">
					<Decode>
						<TranslatedText xml:lang="en">Temporarily stopped study drug</TranslatedText>
						<TranslatedText xml:lang="fr">Etude arreté temporairement</TranslatedText>
						<TranslatedText xml:lang="de">Studium temporär unterbrochen</TranslatedText>
						<TranslatedText xml:lang="ko"/>
					</Decode>
				</CodeListItem>
				<CodeListItem CodedValue="4">
					<Decode>
						<TranslatedText xml:lang="en">Study drug discontinued</TranslatedText>
						<TranslatedText xml:lang="fr">Etude du medicament discontinué</TranslatedText>
						<TranslatedText xml:lang="de">Studium des Medikaments diskontinuiert</TranslatedText>
						<TranslatedText xml:lang="ko"/>
					</Decode>
				</CodeListItem>
			</CodeList>
			<CodeList DataType="integer" Name="Adverse Event Action Taken" OID="CL_AE_OUTCOME" SASFormatName="AEOUT">
				<CodeListItem CodedValue="1">
					<Decode>
						<TranslatedText xml:lang="en">Subject remains in study</TranslatedText>
						<TranslatedText xml:lang="fr">Sujet reste dans l'étude</TranslatedText>
						<TranslatedText xml:lang="de">Patient bleibt in dem Studium</TranslatedText>
						<TranslatedText xml:lang="ko"/>
					</Decode>
				</CodeListItem>
				<CodeListItem CodedValue="2">
					<Decode>
						<TranslatedText xml:lang="en">Withdrawn from study</TranslatedText>
						<TranslatedText xml:lang="fr">Retraité de l'étude</TranslatedText>
						<TranslatedText xml:lang="de">Vom Studium ausgeschlossen</TranslatedText>
						<TranslatedText xml:lang="ko"/>
					</Decode>
				</CodeListItem>
				<CodeListItem CodedValue="3">
					<Decode>
						<TranslatedText xml:lang="en">Lost to follow-up</TranslatedText>
						<TranslatedText xml:lang="fr">Perdu au follow-up</TranslatedText>
						<TranslatedText xml:lang="de">Verloren an follow-up</TranslatedText>
						<TranslatedText xml:lang="ko"/>
					</Decode>
				</CodeListItem>
				<CodeListItem CodedValue="4">
					<Decode>
						<TranslatedText xml:lang="en">Death</TranslatedText>
						<TranslatedText xml:lang="fr">Mort</TranslatedText>
						<TranslatedText xml:lang="de">Tot</TranslatedText>
						<TranslatedText xml:lang="ko"/>
					</Decode>
				</CodeListItem>
			</CodeList>
			<CodeList DataType="integer" Name="Medications Frequency" OID="CL_CM_FREQUENCY" SASFormatName="AEFREQ">
				<CodeListItem CodedValue="1">
					<Decode>
						<TranslatedText xml:lang="en">Single Dose</TranslatedText>
						<TranslatedText xml:lang="fr">Une dose</TranslatedText>
						<TranslatedText xml:lang="de">Eine Dosis</TranslatedText>
						<TranslatedText xml:lang="ko"/>
					</Decode>
				</CodeListItem>
				<CodeListItem CodedValue="2">
					<Decode>
						<TranslatedText xml:lang="en">Daily</TranslatedText>
						<TranslatedText xml:lang="fr">Quotidien</TranslatedText>
						<TranslatedText xml:lang="de">Täglich</TranslatedText>
						<TranslatedText xml:lang="ko"/>
					</Decode>
				</CodeListItem>
				<CodeListItem CodedValue="3">
					<Decode>
						<TranslatedText xml:lang="en">Weekly</TranslatedText>
						<TranslatedText xml:lang="fr">Hebdomadaire</TranslatedText>
						<TranslatedText xml:lang="de">Wöchentlich</TranslatedText>
						<TranslatedText xml:lang="ko"/>
					</Decode>
				</CodeListItem>
				<CodeListItem CodedValue="4">
					<Decode>
						<TranslatedText xml:lang="en">Monthly</TranslatedText>
						<TranslatedText xml:lang="fr">Mensuel</TranslatedText>
						<TranslatedText xml:lang="de">Monatlich</TranslatedText>
						<TranslatedText xml:lang="ko"/>
					</Decode>
				</CodeListItem>
				<CodeListItem CodedValue="5">
					<Decode>
						<TranslatedText xml:lang="en">PRN</TranslatedText>
						<TranslatedText xml:lang="fr">PRN</TranslatedText>
						<TranslatedText xml:lang="de">PRN</TranslatedText>
						<TranslatedText xml:lang="ko"/>
					</Decode>
				</CodeListItem>
				<CodeListItem CodedValue="99">
					<Decode>
						<TranslatedText xml:lang="en">Other</TranslatedText>
						<TranslatedText xml:lang="fr">Autre</TranslatedText>
						<TranslatedText xml:lang="de">Sonstige</TranslatedText>
						<TranslatedText xml:lang="ko"/>
					</Decode>
				</CodeListItem>
			</CodeList>
			<CodeList DataType="text" Name="Not Done" OID="CL_NOTDONEE">
				<CodeListItem CodedValue="NOT DONE">
					<Decode>
						<TranslatedText xml:lang="en">NOT DONE</TranslatedText>
						<TranslatedText xml:lang="ko"/>
					</Decode>
				</CodeListItem>
			</CodeList>
			<Presentation OID="PR.001" xml:lang="en">English</Presentation>
			<Presentation OID="PR.002" xml:lang="fr">French</Presentation>
			<Presentation OID="PR.003" xml:lang="de">German</Presentation>
			<Presentation OID="PR.004" xml:lang="kr">한국어</Presentation>
			<ConditionDef Name="Smoking condition" OID="COND.SMOKING">
				<Description>
					<TranslatedText xml:lang="en">Only to be collected if the subject is smoking</TranslatedText>
					<TranslatedText xml:lang="fr">Ne doit etre collecte si le sujet est fumeur.</TranslatedText>
					<TranslatedText xml:lang="de">Nur zu erfassen wenn der Patient Raucher ist.</TranslatedText>
					<TranslatedText xml:lang="ko"/>
				</Description>
				<FormalExpression Context="XPath">../ItemData[@ItemOID='I_SMOKING'][@Value='false']</FormalExpression>
				<Alias Context="CDASH" Name="CDASH alias"/>
			</ConditionDef>
			<ConditionDef Name="Condition whether the subject is male" OID="COND.SEX.MALE">
				<Description>
					<TranslatedText xml:lang="en">Only to be collected when the subject is female.</TranslatedText>
					<TranslatedText xml:lang="fr">Ne doit etre collecte si le sujet est feminin.</TranslatedText>
					<TranslatedText xml:lang="de">Nur zu erfassen wenn der Patient weiblich ist.</TranslatedText>
					<TranslatedText xml:lang="ko"/>
				</Description>
				<FormalExpression Context="XPath">../ItemData[@ItemOID='I_SEX'][@Value='M']</FormalExpression>
			</ConditionDef>
			<ConditionDef Name="Usage of form about smoking complaints" OID="COND.FORMUSE.SMOKING_COMPLAINTS">
				<Description>
					<TranslatedText xml:lang="en">Use this form only if in the BaseLine form it is marked that the subject is smoking.</TranslatedText>
					<TranslatedText xml:lang="fr">Utilisez ce formulaire dans le cas que dans le formulaire Ligne de Base il est marque que le sujet est fumeur.</TranslatedText>
					<TranslatedText xml:lang="de">Benützen sie diese Formular nur wenn is das Formular BasisLinie angegeben ist das der Patient Raucher ist.</TranslatedText>
					<TranslatedText xml:lang="ko"/>
				</Description>
				<FormalExpression Context="XPath">../FormData[@FormOID='F_BASELINE']/ItemGroupData[@ItemGroupOID='IG_SH']/ItemData[@ItemOID='I_SMOKING'][@Value='0']</FormalExpression>
			</ConditionDef>
			<ConditionDef Name="Usage of itemgroup about smoking complaints" OID="COND.IGUSE.SMOKING_COMPLAINTS">
				<Description>
					<TranslatedText xml:lang="en">Use this group only if it is marked that the subject is smoking</TranslatedText>
					<TranslatedText xml:lang="fr">Utilisez cette groupe dans le cas qu'il est marqué que le sujet est fumeur</TranslatedText>
					<TranslatedText xml:lang="de">Benützen sie diese Gruppe nur wenn angegeben ist das der Patient Raucher ist</TranslatedText>
					<TranslatedText xml:lang="ko"/>
				</Description>
				<FormalExpression Context="XPath">../ItemGroupData[@ItemGroupOID='IG_SH']/ItemData[@ItemOID='I_SMOKING'][@Value='false']</FormalExpression>
			</ConditionDef>
			<ConditionDef Name="Usage of itemgroup about details of adverse events" OID="COND.IGUSE.ADVERSE_EVENTS">
				<Description>
					<TranslatedText xml:lang="en">Use this group only if it is marked that an adverse event occurred</TranslatedText>
					<TranslatedText xml:lang="fr">Utilisez cette groupe dans le cas qu'il est marqué qu'il y a un événement défavorable</TranslatedText>
					<TranslatedText xml:lang="de">Benützen sie diese Gruppe nur wenn angegeben ist das es einen ungewünschte Erreignis statt gefunden hat</TranslatedText>
					<TranslatedText xml:lang="ko"/>
				</Description>
				<FormalExpression Context="XPath">../ItemGroupData[@ItemGroupOID='IG_AE_OCCURRED']/ItemData[@ItemOID='I_AE_OCCURRED'][@Value='0']</FormalExpression>
			</ConditionDef>
			<ConditionDef Name="AE continuing condition" OID="COND.AESTOP.STOPPED">
				<Description>
					<TranslatedText xml:lang="en">Use this group only if it is marked that the adverse event is continueing</TranslatedText>
					<TranslatedText xml:lang="fr">Utilisez cette groupe dans le cas qu'il est marqué qu'il y l'événement défavorable continue</TranslatedText>
					<TranslatedText xml:lang="de">Benützen sie diese Gruppe nur wenn angegeben ist das einen ungewünschte Erreignis noch immer statt findet</TranslatedText>
					<TranslatedText xml:lang="ko"/>
				</Description>
				<FormalExpression Context="XPath">../ItemData[@ItemOID='I_AE_CONTINUES'][@Value='1']</FormalExpression>
			</ConditionDef>
			<ConditionDef Name="Usage of ItemGroup about non-study medication" OID="COND.IGUSE.CM">
				<Description>
					<TranslatedText xml:lang="en">Use this group only if it is marked that concurrent medication has been taken</TranslatedText>
					<TranslatedText xml:lang="fr">Utilisez cette groupe dans le cas qu'il est marqué que d'autres médicaments ont été prises</TranslatedText>
					<TranslatedText xml:lang="de">Benützen sie diese Gruppe nur wenn angegeben ist das andere Medikamenten benützt sein</TranslatedText>
					<TranslatedText xml:lang="ko"/>
				</Description>
				<FormalExpression Context="XPath">../ItemGroupData[@ItemGroupOID='IG_CM_TAKEN']/ItemData[@ItemOID='I_CM_TAKEN'][@Value='0']</FormalExpression>
			</ConditionDef>
			<ConditionDef Name="Condition of low systolic blood pressure" OID="COND.DBP.DIZZY">
				<Description>
					<TranslatedText xml:lang="en">Needs not be collected when the diastolic blood pressure is 90 or higher</TranslatedText>
					<TranslatedText xml:lang="fr">Ne doit pas être collectée si la pression diastolique est 90 ou plus haut</TranslatedText>
					<TranslatedText xml:lang="de">Sollte nicht eingesammelt werden wenn der Wert der diastolischer Blutdrück 90 oder höher ist</TranslatedText>
					<TranslatedText xml:lang="ko"/>
				</Description>
				<FormalExpression Context="XPath">../ItemData[@ItemOID='I_DIABP'][@Value &gt; 90]</FormalExpression>
			</ConditionDef>
			<ConditionDef Name="CM continueing condition" OID="COND.CMSTOP.STOP_DATE">
				<Description>
					<TranslatedText xml:lang="en">Use this group only if it is marked that concurrent medication is ongoing</TranslatedText>
					<TranslatedText xml:lang="fr">Utilisez cette groupe dans le cas qu'il est marqué que d'autres médicaments sont encore pris a ce temps</TranslatedText>
					<TranslatedText xml:lang="de">Benützen sie diese Gruppe nur wenn angegeben ist das noch immer andere Medikamenten benützt werden</TranslatedText>
					<TranslatedText xml:lang="ko"/>
				</Description>
				<FormalExpression Context="XPath">../ItemData[@ItemOID='I_CM_CONTINUES'][@Value='1']</FormalExpression>
			</ConditionDef>
			<ConditionDef Name="Profylaxis condition" OID="COND.PROHYLAXIS">
				<Description>
					<TranslatedText xml:lang="en">Use this group only if it is marked that there is prophylaxis</TranslatedText>
					<TranslatedText xml:lang="fr">Utilisez cette groupe dans le cas qu'il est marqué qu'il y a du Prophylaxie</TranslatedText>
					<TranslatedText xml:lang="de">Benützen sie diese Gruppe nur wenn angegeben ist das es Prophylaxis gibt</TranslatedText>
					<TranslatedText xml:lang="ko"/>
				</Description>
				<FormalExpression Context="XPath">../ItemData[@ItemOID='I_CM_IPROP'][@Value='0']</FormalExpression>
			</ConditionDef>
			<ConditionDef Name="Red Blood Count Not-done condition" OID="COND.LB_RBC">
				<Description>
					<TranslatedText xml:lang="en">Not to be entered if marked that no Red Blood Count was done</TranslatedText>
					<TranslatedText xml:lang="fr">Ne doit pas etre donné si'l est marqué que le nombre de corps rouges n'ont pas été collecté.</TranslatedText>
					<TranslatedText xml:lang="de">Nicht einführen wenn angegeben ist das keine rote Blutkörper gezählt sind</TranslatedText>
					<TranslatedText xml:lang="ko"/>
				</Description>
				<FormalExpression Context="XPath">../ItemData[@ItemOID='I_LB_RBC_NOTDONE'][@Value='true']</FormalExpression>
			</ConditionDef>
			<ConditionDef Name="White Blood Count Not-done condition" OID="COND.LB_WBC">
				<Description>
					<TranslatedText xml:lang="de">Nicht einführen wenn angegeben ist das keine weisse Blutkörper gezählt sind</TranslatedText>
					<TranslatedText xml:lang="fr">Ne doit pas etre donné si'l est marqué que le nombre de corps blanches n'ont pas été collecté.</TranslatedText>
					<TranslatedText xml:lang="en">Not to be entered if marked that no White Blood Count was done</TranslatedText>
					<TranslatedText xml:lang="ko"/>
				</Description>
				<FormalExpression Context="XPath">../ItemData[@ItemOID='I_LB_WBC_NOTDONE'][@Value='true']</FormalExpression>
			</ConditionDef>
			<ConditionDef Name="AE Severity Condition" OID="COND.AE_SEVERITY.AE_SERIOUS">
				<Description>
					<TranslatedText xml:lang="de">Nicht einführen wenn angegeben ist das den Ungewünsche Vorfall nicht ernsthaft war</TranslatedText>
					<TranslatedText xml:lang="fr">Ne doit pas etre donné si'l est marqué que l'événement défavorable n'était pas sérieux</TranslatedText>
					<TranslatedText xml:lang="en">Not to be entered if marked that the AE was not serious</TranslatedText>
					<TranslatedText xml:lang="ko"/>
				</Description>
				<FormalExpression Context="XPath">../ItemData[@ItemOID='I_AE_SERIOUS'][@Value='0']</FormalExpression>
			</ConditionDef>
			<MethodDef Name="Method definition" OID="METH.001">
				<Description>
					<TranslatedText xml:lang="en">English method description</TranslatedText>
					<TranslatedText xml:lang="de">Deutsche Methode Beschreibung</TranslatedText>
					<TranslatedText xml:lang="fr">Description Francaise de la Méthode</TranslatedText>
					<TranslatedText xml:lang="ko"/>
				</Description>
				<FormalExpression Context="MyScriptingLanguage1">Test Algorithm 1</FormalExpression>
				<FormalExpression Context="MyScriptingLanguage2">Test Algorithm 2</FormalExpression>
				<Alias Context="CDASH" Name="CDASH alias"/>
			</MethodDef>
		</MetaDataVersion>
	</Study>
</ODM>